File: data/PoleFigure/Rigaku_xrd_111.asc
*TYPE		=  Raw
*CLASS		=  Polefig
*SAMPLE		=  111_al
*COMMENT	=  Alpha-R=15.000
*FNAME		=  111_Al_1570.raw
*DATE		=  15-Jan-13 12:19

*GROUP_COUNT	=  1
*GONIO		=  Ultima IV (185mm), 185
*ATTACHMENT	=  Multipurpose attachment 4 for Pole Fig.
*ASC		=  0, 0, 0.000000, 0.000000
*SLIT_NAME	=  0, DivSlit
*SLIT_NAME	=  1, SctSlit
*SLIT_NAME	=  2, RecSlit
*SLIT_NAME	=  3, DivH.L.Slit
*COUNTER	=  Scintillation counter, 0
*POS_FORMAT	=  0
*SCAN_AXIS	=  beta
*MEAS_MODE	=  Continuous Scanning
*TARGET		=  29
*XRAY_CHAR	=  K-ALPHA1
*WAVE_LENGTH1	=  1.54056
*WAVE_LENGTH2	=  1.5444
*THICKNESS	=  0, 0.000000
*MU		=  0, 0.000000
*SCAN_MODE	=  beta
*SPEED_DIM	=  sec./step
*XUNIT		=  deg.
*YUNIT		=  counts
*SCALE_MODE	=  1
*REP_COUNT	=  1
*SE_COUNT	=  0
*STD_MATERIAL	=  Unknown, Unknown, 0.000000, 0.000000, 0.000000, 0.000000, 0.000000, 0.000000
*LATT_CONS	=  0, Cubic, Unknown, 0.000000, 0.000000, 0.000000, 0.000000, 0.000000, 0.000000
*SEC_COUNT	=  31
*TSPEC_SIZE	=  0
*EXTRA_SIZE	=  0
*PF_MEASUR	=  Coaxial circle scan
*PF_DATATYPE	=  Integral intensity
*PF_METHOD	=  0, Unknown
*PF_METHOD	=  1, Schulz reflection method
*PF_PCOUNT	=  0, 0
*PF_PCOUNT	=  1, 31
*PF_ASTART	=  0, 15
*PF_ASTART	=  1, 15
*PF_ASTOP	=  0, 80
*PF_ASTOP	=  1, 90
*PF_ASTEP	=  0, 5
*PF_ASTEP	=  1, 2.5
*PF_ASPEED	=  0, 0.000000
*PF_ASPEED	=  1, 0.000000
*PF_GAMMA	=  0, 0.000000
*PF_GAMMA	=  1, 0.000000
*PF_2THANGLE	=  0, 0.000000
*PF_2THANGLE	=  1, 38.3845
*PF_2THSTART	=  0, 0.000000
*PF_2THSTART	=  1, 0.000000
*PF_2THSTOP	=  0, 0.000000
*PF_2THSTOP	=  1, 0.000000
*PF_2THSTEP	=  0, 0.000000
*PF_2THSTEP	=  1, 0.000000
*PF_ASPEED	=  0, 0.000000
*PF_ASPEED	=  1, 0.000000
*MEMO		=  Al

*BEGIN
*GROUP		=  0
*START		=  0.000000
*STOP		=  360
*STEP		=  2.5
*OFFSET		=
*SPEED		=  0.833333
*SLIT_SPEC	=  0, 1/2 deg., 0.87, 10
*SLIT_SPEC	=  1, 1/2 deg., 0.67, 20
*SLIT_SPEC	=  2, 0.3mm, 0.3, 20
*SLIT_SPEC	=  3, 2mm, 8, 2
*KV		=  40
*MA		=  40
*LOW		=  172.8
*HIGH		=  345.6
*CTEMPER	=  0, 0.000000
*CTEMPER	=  1, 0.000000
*CTEMPER	=  2, 0.000000
*PAREX		=  0, 0.000000
*PAREX		=  1, 0.000000
*PAREX		=  2, 0.000000
*PAREX		=  3, 0.000000
*PAREX		=  4, 0.000000
*PAREX		=  5, 0.000000
*PAREX		=  6, 0.000000
*PAREX		=  7, 0.000000
*PAREX		=  8, 0.000000
*PAREX		=  9, 0.000000
*PAREX		=  10, 0.000000
*PAREX		=  11, 0.000000
*PAREX		=  12, 0.000000
*PAREX		=  13, 0.000000
*PAREX		=  14, 0.000000
*PAREX		=  15, 0.000000
*FULL_SCALE	=  1000
*PF_AANGLE	=  15
*PF_BANGLE	=  0.000000
*INDEX		=  1, 1, 1
*COUNT		=  145
175, 202, 219, 267
257, 265, 267, 276
223, 241, 260, 224
182, 187, 164, 176
149, 144, 139, 151
144, 161, 149, 144
188, 199, 203, 244
245, 242, 296, 291
289, 301, 223, 235
209, 171, 203, 156
152, 175, 134, 135
121, 124, 152, 135
139, 162, 178, 219
200, 215, 240, 280
276, 261, 271, 268
223, 245, 204, 196
181, 172, 176, 186
169, 179, 176, 180
186, 178, 200, 194
232, 246, 233, 245
252, 264, 269, 202
207, 185, 174, 170
169, 146, 148, 162
185, 168, 162, 175
166, 190, 224, 194
233, 265, 268, 292
312, 345, 306, 335
256, 287, 265, 233
220, 185, 201, 152
209, 222, 182, 203
187, 215, 223, 246
263, 266, 255, 267
284, 315, 338, 301
287, 247, 264, 243
226, 217, 190, 177
204, 199, 222, 203
211
*END

*BEGIN
*GROUP		=  0
*START		=  0.000000
*STOP		=  360
*STEP		=  2.5
*OFFSET		=
*SPEED		=  0.833333
*SLIT_SPEC	=  0, 1/2 deg., 0.87, 10
*SLIT_SPEC	=  1, 1/2 deg., 0.67, 20
*SLIT_SPEC	=  2, 0.3mm, 0.3, 20
*SLIT_SPEC	=  3, 2mm, 8, 2
*KV		=  40
*MA		=  40
*LOW		=  172.8
*HIGH		=  345.6
*CTEMPER	=  0, 0.000000
*CTEMPER	=  1, 0.000000
*CTEMPER	=  2, 0.000000
*PAREX		=  0, 0.000000
*PAREX		=  1, 0.000000
*PAREX		=  2, 0.000000
*PAREX		=  3, 0.000000
*PAREX		=  4, 0.000000
*PAREX		=  5, 0.000000
*PAREX		=  6, 0.000000
*PAREX		=  7, 0.000000
*PAREX		=  8, 0.000000
*PAREX		=  9, 0.000000
*PAREX		=  10, 0.000000
*PAREX		=  11, 0.000000
*PAREX		=  12, 0.000000
*PAREX		=  13, 0.000000
*PAREX		=  14, 0.000000
*PAREX		=  15, 0.000000
*FULL_SCALE	=  1000
*PF_AANGLE	=  17.5
*PF_BANGLE	=  0.000000
*INDEX		=  1, 1, 1
*COUNT		=  145
277, 262, 276, 252
272, 305, 284, 307
263, 275, 239, 241
216, 216, 183, 203
183, 160, 184, 196
179, 171, 192, 179
183, 211, 218, 289
290, 303, 315, 344
326, 273, 252, 238
241, 204, 191, 225
189, 175, 172, 154
174, 160, 168, 196
180, 187, 184, 231
200, 241, 274, 311
353, 340, 329, 334
308, 285, 258, 223
221, 224, 206, 238
225, 211, 188, 204
231, 221, 249, 226
269, 302, 268, 269
259, 294, 279, 257
240, 221, 220, 206
197, 177, 172, 172
172, 158, 190, 188
219, 200, 238, 286
282, 305, 299, 353
394, 392, 373, 334
309, 307, 306, 303
271, 265, 260, 213
239, 228, 211, 217
244, 217, 240, 262
285, 297, 316, 343
313, 313, 338, 344
372, 343, 303, 280
285, 262, 257, 251
214, 221, 235, 250
252
*END

*BEGIN
*GROUP		=  0
*START		=  0.000000
*STOP		=  360
*STEP		=  2.5
*OFFSET		=
*SPEED		=  0.833333
*SLIT_SPEC	=  0, 1/2 deg., 0.87, 10
*SLIT_SPEC	=  1, 1/2 deg., 0.67, 20
*SLIT_SPEC	=  2, 0.3mm, 0.3, 20
*SLIT_SPEC	=  3, 2mm, 8, 2
*KV		=  40
*MA		=  40
*LOW		=  345.6
*HIGH		=  432
*CTEMPER	=  0, 0.000000
*CTEMPER	=  1, 0.000000
*CTEMPER	=  2, 0.000000
*PAREX		=  0, 0.000000
*PAREX		=  1, 0.000000
*PAREX		=  2, 0.000000
*PAREX		=  3, 0.000000
*PAREX		=  4, 0.000000
*PAREX		=  5, 0.000000
*PAREX		=  6, 0.000000
*PAREX		=  7, 0.000000
*PAREX		=  8, 0.000000
*PAREX		=  9, 0.000000
*PAREX		=  10, 0.000000
*PAREX		=  11, 0.000000
*PAREX		=  12, 0.000000
*PAREX		=  13, 0.000000
*PAREX		=  14, 0.000000
*PAREX		=  15, 0.000000
*FULL_SCALE	=  1000
*PF_AANGLE	=  20
*PF_BANGLE	=  0.000000
*INDEX		=  1, 1, 1
*COUNT		=  145
283, 299, 304, 301
345, 309, 323, 309
334, 263, 272, 277
240, 234, 190, 216
220, 183, 192, 189
212, 211, 188, 199
226, 232, 281, 256
308, 326, 365, 335
336, 321, 289, 284
285, 277, 231, 262
209, 192, 198, 187
188, 191, 173, 200
213, 232, 256, 272
293, 330, 349, 403
414, 436, 433, 407
364, 357, 321, 318
283, 248, 252, 253
222, 252, 259, 257
249, 274, 315, 283
290, 298, 335, 346
337, 322, 297, 278
290, 227, 219, 216
217, 212, 195, 197
197, 195, 210, 219
242, 246, 268, 274
323, 327, 340, 402
385, 354, 394, 373
408, 412, 342, 319
301, 287, 263, 241
270, 245, 256, 260
263, 249, 266, 317
309, 307, 311, 339
348, 373, 399, 387
367, 399, 335, 338
346, 302, 292, 286
247, 276, 297, 277
324
*END

*BEGIN
*GROUP		=  0
*START		=  0.000000
*STOP		=  360
*STEP		=  2.5
*OFFSET		=
*SPEED		=  0.833333
*SLIT_SPEC	=  0, 1/2 deg., 0.87, 10
*SLIT_SPEC	=  1, 1/2 deg., 0.67, 20
*SLIT_SPEC	=  2, 0.3mm, 0.3, 20
*SLIT_SPEC	=  3, 2mm, 8, 2
*KV		=  40
*MA		=  40
*LOW		=  432
*HIGH		=  518.4
*CTEMPER	=  0, 0.000000
*CTEMPER	=  1, 0.000000
*CTEMPER	=  2, 0.000000
*PAREX		=  0, 0.000000
*PAREX		=  1, 0.000000
*PAREX		=  2, 0.000000
*PAREX		=  3, 0.000000
*PAREX		=  4, 0.000000
*PAREX		=  5, 0.000000
*PAREX		=  6, 0.000000
*PAREX		=  7, 0.000000
*PAREX		=  8, 0.000000
*PAREX		=  9, 0.000000
*PAREX		=  10, 0.000000
*PAREX		=  11, 0.000000
*PAREX		=  12, 0.000000
*PAREX		=  13, 0.000000
*PAREX		=  14, 0.000000
*PAREX		=  15, 0.000000
*FULL_SCALE	=  1000
*PF_AANGLE	=  22.5
*PF_BANGLE	=  0.000000
*INDEX		=  1, 1, 1
*COUNT		=  145
324, 357, 357, 352
348, 314, 381, 301
308, 324, 285, 268
313, 241, 267, 218
235, 228, 225, 216
228, 218, 234, 247
261, 254, 297, 306
328, 355, 407, 374
405, 377, 355, 379
360, 321, 285, 276
262, 256, 222, 234
230, 237, 259, 270
247, 296, 303, 301
331, 337, 424, 454
458, 500, 486, 477
421, 392, 373, 364
284, 287, 289, 282
295, 284, 277, 295
315, 318, 371, 364
371, 389, 400, 429
394, 355, 332, 322
326, 265, 269, 226
215, 228, 224, 240
215, 232, 270, 255
248, 290, 307, 327
309, 358, 393, 394
405, 462, 424, 389
447, 395, 373, 361
303, 312, 293, 308
279, 290, 242, 250
296, 284, 308, 306
341, 311, 346, 363
373, 426, 393, 416
404, 405, 394, 393
378, 355, 311, 342
307, 314, 356, 343
361
*END

*BEGIN
*GROUP		=  0
*START		=  0.000000
*STOP		=  360
*STEP		=  2.5
*OFFSET		=
*SPEED		=  0.833333
*SLIT_SPEC	=  0, 1/2 deg., 0.87, 10
*SLIT_SPEC	=  1, 1/2 deg., 0.67, 20
*SLIT_SPEC	=  2, 0.3mm, 0.3, 20
*SLIT_SPEC	=  3, 2mm, 8, 2
*KV		=  40
*MA		=  40
*LOW		=  604.8
*HIGH		=  518.4
*CTEMPER	=  0, 0.000000
*CTEMPER	=  1, 0.000000
*CTEMPER	=  2, 0.000000
*PAREX		=  0, 0.000000
*PAREX		=  1, 0.000000
*PAREX		=  2, 0.000000
*PAREX		=  3, 0.000000
*PAREX		=  4, 0.000000
*PAREX		=  5, 0.000000
*PAREX		=  6, 0.000000
*PAREX		=  7, 0.000000
*PAREX		=  8, 0.000000
*PAREX		=  9, 0.000000
*PAREX		=  10, 0.000000
*PAREX		=  11, 0.000000
*PAREX		=  12, 0.000000
*PAREX		=  13, 0.000000
*PAREX		=  14, 0.000000
*PAREX		=  15, 0.000000
*FULL_SCALE	=  1000
*PF_AANGLE	=  25
*PF_BANGLE	=  0.000000
*INDEX		=  1, 1, 1
*COUNT		=  145
378, 395, 405, 364
375, 373, 348, 333
366, 325, 316, 299
294, 301, 242, 264
251, 247, 271, 251
253, 231, 299, 238
276, 318, 333, 352
375, 411, 395, 430
434, 391, 398, 421
371, 364, 314, 305
274, 274, 263, 298
269, 251, 274, 274
309, 313, 319, 336
384, 401, 437, 469
501, 575, 537, 513
478, 441, 447, 404
344, 376, 356, 325
345, 326, 334, 338
391, 375, 404, 415
417, 431, 427, 422
468, 445, 405, 336
346, 248, 283, 277
275, 224, 233, 257
230, 246, 286, 274
305, 322, 324, 337
364, 365, 370, 454
407, 459, 415, 446
434, 422, 407, 379
382, 342, 333, 305
315, 317, 310, 294
331, 329, 328, 326
335, 365, 361, 375
360, 392, 419, 439
375, 417, 387, 419
371, 362, 396, 398
346, 397, 357, 364
412
*END

*BEGIN
*GROUP		=  0
*START		=  0.000000
*STOP		=  360
*STEP		=  2.5
*OFFSET		=
*SPEED		=  0.833333
*SLIT_SPEC	=  0, 1/2 deg., 0.87, 10
*SLIT_SPEC	=  1, 1/2 deg., 0.67, 20
*SLIT_SPEC	=  2, 0.3mm, 0.3, 20
*SLIT_SPEC	=  3, 2mm, 8, 2
*KV		=  40
*MA		=  40
*LOW		=  777.6
*HIGH		=  518.4
*CTEMPER	=  0, 0.000000
*CTEMPER	=  1, 0.000000
*CTEMPER	=  2, 0.000000
*PAREX		=  0, 0.000000
*PAREX		=  1, 0.000000
*PAREX		=  2, 0.000000
*PAREX		=  3, 0.000000
*PAREX		=  4, 0.000000
*PAREX		=  5, 0.000000
*PAREX		=  6, 0.000000
*PAREX		=  7, 0.000000
*PAREX		=  8, 0.000000
*PAREX		=  9, 0.000000
*PAREX		=  10, 0.000000
*PAREX		=  11, 0.000000
*PAREX		=  12, 0.000000
*PAREX		=  13, 0.000000
*PAREX		=  14, 0.000000
*PAREX		=  15, 0.000000
*FULL_SCALE	=  1000
*PF_AANGLE	=  27.5
*PF_BANGLE	=  0.000000
*INDEX		=  1, 1, 1
*COUNT		=  145
421, 404, 406, 416
376, 416, 356, 359
318, 339, 319, 314
265, 340, 280, 303
272, 258, 233, 260
272, 271, 295, 314
303, 328, 347, 383
419, 384, 375, 438
477, 449, 449, 447
458, 427, 430, 389
341, 316, 313, 330
314, 282, 338, 317
309, 337, 375, 395
410, 419, 479, 551
535, 559, 597, 564
547, 509, 463, 428
429, 407, 415, 403
395, 407, 421, 409
412, 442, 441, 435
460, 445, 504, 475
475, 438, 418, 379
353, 329, 347, 311
278, 293, 297, 271
288, 285, 287, 319
321, 348, 338, 394
374, 394, 431, 410
414, 443, 428, 422
432, 436, 427, 403
363, 355, 361, 338
312, 314, 330, 332
321, 360, 340, 323
330, 326, 392, 373
412, 390, 381, 437
450, 431, 440, 408
441, 394, 401, 425
429, 411, 448, 419
441
*END

*BEGIN
*GROUP		=  0
*START		=  0.000000
*STOP		=  360
*STEP		=  2.5
*OFFSET		=
*SPEED		=  0.833333
*SLIT_SPEC	=  0, 1/2 deg., 0.87, 10
*SLIT_SPEC	=  1, 1/2 deg., 0.67, 20
*SLIT_SPEC	=  2, 0.3mm, 0.3, 20
*SLIT_SPEC	=  3, 2mm, 8, 2
*KV		=  40
*MA		=  40
*LOW		=  691.2
*HIGH		=  604.8
*CTEMPER	=  0, 0.000000
*CTEMPER	=  1, 0.000000
*CTEMPER	=  2, 0.000000
*PAREX		=  0, 0.000000
*PAREX		=  1, 0.000000
*PAREX		=  2, 0.000000
*PAREX		=  3, 0.000000
*PAREX		=  4, 0.000000
*PAREX		=  5, 0.000000
*PAREX		=  6, 0.000000
*PAREX		=  7, 0.000000
*PAREX		=  8, 0.000000
*PAREX		=  9, 0.000000
*PAREX		=  10, 0.000000
*PAREX		=  11, 0.000000
*PAREX		=  12, 0.000000
*PAREX		=  13, 0.000000
*PAREX		=  14, 0.000000
*PAREX		=  15, 0.000000
*FULL_SCALE	=  1000
*PF_AANGLE	=  30
*PF_BANGLE	=  0.000000
*INDEX		=  1, 1, 1
*COUNT		=  145
473, 435, 404, 406
379, 399, 395, 377
354, 366, 318, 298
318, 304, 284, 278
297, 327, 313, 294
294, 318, 313, 357
319, 380, 403, 386
396, 461, 456, 518
504, 539, 465, 495
489, 458, 481, 416
398, 364, 401, 392
309, 359, 321, 348
368, 399, 410, 439
434, 476, 508, 536
576, 618, 557, 568
561, 486, 514, 472
470, 427, 428, 439
461, 463, 465, 483
482, 461, 560, 512
540, 532, 499, 497
467, 469, 447, 407
379, 351, 348, 311
313, 322, 289, 282
305, 338, 303, 320
342, 351, 350, 383
381, 398, 388, 431
409, 390, 409, 443
399, 436, 412, 367
391, 329, 359, 367
347, 366, 354, 326
332, 329, 329, 329
348, 350, 344, 404
406, 438, 441, 431
453, 424, 443, 436
467, 418, 440, 475
441, 412, 404, 410
423
*END

*BEGIN
*GROUP		=  0
*START		=  0.000000
*STOP		=  360
*STEP		=  2.5
*OFFSET		=
*SPEED		=  0.833333
*SLIT_SPEC	=  0, 1/2 deg., 0.87, 10
*SLIT_SPEC	=  1, 1/2 deg., 0.67, 20
*SLIT_SPEC	=  2, 0.3mm, 0.3, 20
*SLIT_SPEC	=  3, 2mm, 8, 2
*KV		=  40
*MA		=  40
*LOW		=  777.6
*HIGH		=  604.8
*CTEMPER	=  0, 0.000000
*CTEMPER	=  1, 0.000000
*CTEMPER	=  2, 0.000000
*PAREX		=  0, 0.000000
*PAREX		=  1, 0.000000
*PAREX		=  2, 0.000000
*PAREX		=  3, 0.000000
*PAREX		=  4, 0.000000
*PAREX		=  5, 0.000000
*PAREX		=  6, 0.000000
*PAREX		=  7, 0.000000
*PAREX		=  8, 0.000000
*PAREX		=  9, 0.000000
*PAREX		=  10, 0.000000
*PAREX		=  11, 0.000000
*PAREX		=  12, 0.000000
*PAREX		=  13, 0.000000
*PAREX		=  14, 0.000000
*PAREX		=  15, 0.000000
*FULL_SCALE	=  1000
*PF_AANGLE	=  32.5
*PF_BANGLE	=  0.000000
*INDEX		=  1, 1, 1
*COUNT		=  145
468, 462, 419, 406
383, 402, 383, 398
375, 355, 351, 355
348, 352, 322, 322
360, 307, 318, 319
333, 320, 342, 385
376, 431, 424, 446
444, 469, 522, 493
529, 579, 549, 559
538, 484, 539, 481
456, 391, 385, 404
403, 386, 367, 409
401, 444, 415, 488
476, 506, 442, 514
534, 555, 610, 600
540, 539, 479, 537
474, 495, 474, 501
499, 540, 519, 499
548, 527, 542, 495
503, 570, 492, 553
496, 464, 466, 430
405, 412, 383, 357
335, 337, 344, 374
333, 420, 367, 365
403, 412, 393, 406
390, 401, 432, 416
376, 414, 435, 440
420, 396, 431, 366
393, 354, 372, 325
314, 331, 334, 321
312, 330, 375, 347
377, 350, 365, 370
390, 384, 407, 431
434, 470, 451, 459
473, 430, 465, 437
456, 467, 448, 453
456
*END

*BEGIN
*GROUP		=  0
*START		=  0.000000
*STOP		=  360
*STEP		=  2.5
*OFFSET		=
*SPEED		=  0.833333
*SLIT_SPEC	=  0, 1/2 deg., 0.87, 10
*SLIT_SPEC	=  1, 1/2 deg., 0.67, 20
*SLIT_SPEC	=  2, 0.3mm, 0.3, 20
*SLIT_SPEC	=  3, 2mm, 8, 2
*KV		=  40
*MA		=  40
*LOW		=  864
*HIGH		=  777.6
*CTEMPER	=  0, 0.000000
*CTEMPER	=  1, 0.000000
*CTEMPER	=  2, 0.000000
*PAREX		=  0, 0.000000
*PAREX		=  1, 0.000000
*PAREX		=  2, 0.000000
*PAREX		=  3, 0.000000
*PAREX		=  4, 0.000000
*PAREX		=  5, 0.000000
*PAREX		=  6, 0.000000
*PAREX		=  7, 0.000000
*PAREX		=  8, 0.000000
*PAREX		=  9, 0.000000
*PAREX		=  10, 0.000000
*PAREX		=  11, 0.000000
*PAREX		=  12, 0.000000
*PAREX		=  13, 0.000000
*PAREX		=  14, 0.000000
*PAREX		=  15, 0.000000
*FULL_SCALE	=  1000
*PF_AANGLE	=  35
*PF_BANGLE	=  0.000000
*INDEX		=  1, 1, 1
*COUNT		=  145
471, 457, 440, 487
432, 397, 394, 432
400, 394, 408, 376
363, 348, 391, 359
316, 337, 344, 364
360, 378, 410, 349
415, 446, 486, 455
498, 473, 501, 526
588, 619, 593, 601
637, 607, 517, 539
476, 429, 424, 435
408, 436, 431, 474
401, 400, 474, 471
457, 486, 441, 466
562, 539, 553, 520
562, 576, 555, 543
521, 537, 525, 550
554, 562, 553, 633
588, 609, 573, 660
597, 526, 522, 538
497, 484, 439, 436
394, 365, 351, 381
370, 359, 391, 385
411, 386, 396, 394
428, 432, 434, 385
420, 407, 435, 437
434, 424, 410, 415
414, 374, 377, 375
335, 362, 364, 330
359, 324, 340, 350
353, 310, 339, 344
341, 348, 363, 383
385, 402, 426, 405
443, 412, 445, 499
455, 482, 449, 429
485, 459, 524, 496
474
*END

*BEGIN
*GROUP		=  0
*START		=  0.000000
*STOP		=  360
*STEP		=  2.5
*OFFSET		=
*SPEED		=  0.833333
*SLIT_SPEC	=  0, 1/2 deg., 0.87, 10
*SLIT_SPEC	=  1, 1/2 deg., 0.67, 20
*SLIT_SPEC	=  2, 0.3mm, 0.3, 20
*SLIT_SPEC	=  3, 2mm, 8, 2
*KV		=  40
*MA		=  40
*LOW		=  864
*HIGH		=  518.4
*CTEMPER	=  0, 0.000000
*CTEMPER	=  1, 0.000000
*CTEMPER	=  2, 0.000000
*PAREX		=  0, 0.000000
*PAREX		=  1, 0.000000
*PAREX		=  2, 0.000000
*PAREX		=  3, 0.000000
*PAREX		=  4, 0.000000
*PAREX		=  5, 0.000000
*PAREX		=  6, 0.000000
*PAREX		=  7, 0.000000
*PAREX		=  8, 0.000000
*PAREX		=  9, 0.000000
*PAREX		=  10, 0.000000
*PAREX		=  11, 0.000000
*PAREX		=  12, 0.000000
*PAREX		=  13, 0.000000
*PAREX		=  14, 0.000000
*PAREX		=  15, 0.000000
*FULL_SCALE	=  1000
*PF_AANGLE	=  37.5
*PF_BANGLE	=  0.000000
*INDEX		=  1, 1, 1
*COUNT		=  145
522, 450, 444, 429
455, 433, 425, 415
461, 424, 399, 396
410, 369, 366, 415
374, 406, 373, 377
388, 408, 406, 432
455, 462, 507, 505
580, 571, 603, 614
611, 622, 629, 669
637, 613, 593, 582
537, 523, 493, 486
415, 441, 445, 455
446, 460, 464, 453
463, 471, 486, 503
541, 541, 544, 508
536, 540, 571, 534
543, 579, 601, 580
591, 600, 639, 641
598, 608, 626, 631
600, 606, 576, 542
527, 501, 506, 476
466, 464, 442, 458
440, 417, 392, 425
412, 398, 395, 428
488, 456, 469, 473
456, 466, 436, 415
448, 396, 399, 426
400, 427, 339, 399
364, 342, 358, 322
366, 341, 302, 324
305, 324, 320, 340
340, 381, 350, 360
388, 380, 397, 428
429, 467, 511, 466
482, 509, 494, 491
461, 508, 486, 446
474
*END

*BEGIN
*GROUP		=  0
*START		=  0.000000
*STOP		=  360
*STEP		=  2.5
*OFFSET		=
*SPEED		=  0.833333
*SLIT_SPEC	=  0, 1/2 deg., 0.87, 10
*SLIT_SPEC	=  1, 1/2 deg., 0.67, 20
*SLIT_SPEC	=  2, 0.3mm, 0.3, 20
*SLIT_SPEC	=  3, 2mm, 8, 2
*KV		=  40
*MA		=  40
*LOW		=  1123.2
*HIGH		=  864
*CTEMPER	=  0, 0.000000
*CTEMPER	=  1, 0.000000
*CTEMPER	=  2, 0.000000
*PAREX		=  0, 0.000000
*PAREX		=  1, 0.000000
*PAREX		=  2, 0.000000
*PAREX		=  3, 0.000000
*PAREX		=  4, 0.000000
*PAREX		=  5, 0.000000
*PAREX		=  6, 0.000000
*PAREX		=  7, 0.000000
*PAREX		=  8, 0.000000
*PAREX		=  9, 0.000000
*PAREX		=  10, 0.000000
*PAREX		=  11, 0.000000
*PAREX		=  12, 0.000000
*PAREX		=  13, 0.000000
*PAREX		=  14, 0.000000
*PAREX		=  15, 0.000000
*FULL_SCALE	=  1000
*PF_AANGLE	=  40
*PF_BANGLE	=  0.000000
*INDEX		=  1, 1, 1
*COUNT		=  145
531, 503, 442, 475
431, 480, 438, 444
416, 408, 450, 438
415, 423, 455, 434
445, 398, 475, 462
467, 452, 483, 478
504, 535, 574, 621
576, 620, 639, 662
682, 640, 670, 685
683, 628, 666, 623
552, 559, 528, 472
496, 499, 457, 456
449, 473, 487, 463
482, 505, 490, 504
499, 543, 536, 516
528, 546, 516, 567
516, 533, 570, 552
585, 609, 629, 667
616, 680, 640, 592
631, 605, 561, 552
531, 502, 540, 509
468, 453, 457, 480
433, 447, 443, 457
465, 426, 496, 453
469, 466, 501, 504
457, 472, 470, 495
448, 446, 421, 440
370, 372, 398, 394
367, 377, 359, 328
385, 370, 356, 364
362, 352, 344, 371
336, 375, 366, 379
425, 435, 389, 382
445, 430, 452, 476
494, 507, 498, 492
524, 455, 457, 484
491
*END

*BEGIN
*GROUP		=  0
*START		=  0.000000
*STOP		=  360
*STEP		=  2.5
*OFFSET		=
*SPEED		=  0.833333
*SLIT_SPEC	=  0, 1/2 deg., 0.87, 10
*SLIT_SPEC	=  1, 1/2 deg., 0.67, 20
*SLIT_SPEC	=  2, 0.3mm, 0.3, 20
*SLIT_SPEC	=  3, 2mm, 8, 2
*KV		=  40
*MA		=  40
*LOW		=  950.4
*HIGH		=  950.4
*CTEMPER	=  0, 0.000000
*CTEMPER	=  1, 0.000000
*CTEMPER	=  2, 0.000000
*PAREX		=  0, 0.000000
*PAREX		=  1, 0.000000
*PAREX		=  2, 0.000000
*PAREX		=  3, 0.000000
*PAREX		=  4, 0.000000
*PAREX		=  5, 0.000000
*PAREX		=  6, 0.000000
*PAREX		=  7, 0.000000
*PAREX		=  8, 0.000000
*PAREX		=  9, 0.000000
*PAREX		=  10, 0.000000
*PAREX		=  11, 0.000000
*PAREX		=  12, 0.000000
*PAREX		=  13, 0.000000
*PAREX		=  14, 0.000000
*PAREX		=  15, 0.000000
*FULL_SCALE	=  1000
*PF_AANGLE	=  42.5
*PF_BANGLE	=  0.000000
*INDEX		=  1, 1, 1
*COUNT		=  145
495, 514, 506, 486
459, 458, 420, 468
515, 445, 454, 465
462, 470, 471, 477
510, 444, 469, 490
514, 508, 538, 546
559, 583, 568, 593
630, 647, 645, 662
605, 674, 704, 699
717, 715, 684, 642
591, 545, 525, 551
496, 508, 512, 414
491, 459, 491, 494
509, 499, 516, 470
523, 494, 495, 552
530, 508, 485, 512
523, 564, 591, 619
635, 590, 644, 680
628, 633, 603, 701
608, 598, 579, 556
559, 547, 541, 477
490, 496, 512, 479
474, 489, 524, 471
510, 511, 495, 550
496, 544, 544, 514
520, 501, 526, 485
502, 448, 397, 391
418, 389, 390, 406
391, 368, 390, 361
356, 369, 351, 360
349, 368, 351, 357
390, 355, 352, 373
399, 438, 437, 460
407, 460, 427, 459
491, 474, 532, 481
485, 512, 498, 524
522
*END

*BEGIN
*GROUP		=  0
*START		=  0.000000
*STOP		=  360
*STEP		=  2.5
*OFFSET		=
*SPEED		=  0.833333
*SLIT_SPEC	=  0, 1/2 deg., 0.87, 10
*SLIT_SPEC	=  1, 1/2 deg., 0.67, 20
*SLIT_SPEC	=  2, 0.3mm, 0.3, 20
*SLIT_SPEC	=  3, 2mm, 8, 2
*KV		=  40
*MA		=  40
*LOW		=  1209.6
*HIGH		=  864
*CTEMPER	=  0, 0.000000
*CTEMPER	=  1, 0.000000
*CTEMPER	=  2, 0.000000
*PAREX		=  0, 0.000000
*PAREX		=  1, 0.000000
*PAREX		=  2, 0.000000
*PAREX		=  3, 0.000000
*PAREX		=  4, 0.000000
*PAREX		=  5, 0.000000
*PAREX		=  6, 0.000000
*PAREX		=  7, 0.000000
*PAREX		=  8, 0.000000
*PAREX		=  9, 0.000000
*PAREX		=  10, 0.000000
*PAREX		=  11, 0.000000
*PAREX		=  12, 0.000000
*PAREX		=  13, 0.000000
*PAREX		=  14, 0.000000
*PAREX		=  15, 0.000000
*FULL_SCALE	=  1000
*PF_AANGLE	=  45
*PF_BANGLE	=  0.000000
*INDEX		=  1, 1, 1
*COUNT		=  145
520, 528, 513, 502
500, 495, 522, 523
481, 461, 502, 468
534, 521, 544, 542
516, 511, 524, 577
569, 582, 594, 580
614, 679, 694, 674
648, 675, 720, 719
733, 732, 706, 729
688, 657, 677, 670
616, 570, 523, 550
519, 490, 532, 531
490, 479, 495, 539
515, 462, 456, 516
505, 503, 499, 496
511, 509, 499, 535
543, 538, 584, 562
666, 600, 621, 651
661, 643, 585, 654
666, 662, 613, 599
592, 593, 557, 586
591, 531, 552, 568
528, 558, 599, 575
580, 570, 558, 580
582, 563, 583, 598
580, 564, 538, 509
570, 485, 484, 445
453, 429, 424, 427
419, 411, 349, 369
417, 352, 380, 343
363, 359, 350, 352
345, 367, 362, 406
380, 450, 418, 439
475, 445, 472, 501
473, 476, 480, 449
524, 497, 507, 486
540
*END

*BEGIN
*GROUP		=  0
*START		=  0.000000
*STOP		=  360
*STEP		=  2.5
*OFFSET		=
*SPEED		=  0.833333
*SLIT_SPEC	=  0, 1/2 deg., 0.87, 10
*SLIT_SPEC	=  1, 1/2 deg., 0.67, 20
*SLIT_SPEC	=  2, 0.3mm, 0.3, 20
*SLIT_SPEC	=  3, 2mm, 8, 2
*KV		=  40
*MA		=  40
*LOW		=  950.4
*HIGH		=  1036.8
*CTEMPER	=  0, 0.000000
*CTEMPER	=  1, 0.000000
*CTEMPER	=  2, 0.000000
*PAREX		=  0, 0.000000
*PAREX		=  1, 0.000000
*PAREX		=  2, 0.000000
*PAREX		=  3, 0.000000
*PAREX		=  4, 0.000000
*PAREX		=  5, 0.000000
*PAREX		=  6, 0.000000
*PAREX		=  7, 0.000000
*PAREX		=  8, 0.000000
*PAREX		=  9, 0.000000
*PAREX		=  10, 0.000000
*PAREX		=  11, 0.000000
*PAREX		=  12, 0.000000
*PAREX		=  13, 0.000000
*PAREX		=  14, 0.000000
*PAREX		=  15, 0.000000
*FULL_SCALE	=  1000
*PF_AANGLE	=  47.5
*PF_BANGLE	=  0.000000
*INDEX		=  1, 1, 1
*COUNT		=  145
519, 556, 512, 535
552, 521, 545, 542
522, 543, 560, 498
560, 590, 567, 563
555, 567, 575, 558
635, 709, 612, 632
689, 694, 713, 722
730, 692, 736, 731
784, 784, 747, 747
744, 684, 679, 591
653, 618, 615, 602
532, 550, 515, 527
511, 490, 511, 506
501, 507, 505, 541
501, 452, 451, 505
518, 496, 516, 527
578, 545, 580, 595
633, 579, 603, 668
669, 585, 642, 656
589, 648, 623, 650
573, 632, 615, 599
614, 614, 575, 627
606, 599, 618, 663
601, 637, 642, 664
649, 660, 654, 635
605, 566, 585, 587
550, 535, 554, 510
500, 485, 464, 490
412, 434, 404, 430
439, 430, 429, 385
374, 381, 381, 398
382, 375, 392, 402
423, 455, 436, 453
466, 495, 482, 455
521, 500, 513, 519
510, 495, 518, 518
543
*END

*BEGIN
*GROUP		=  0
*START		=  0.000000
*STOP		=  360
*STEP		=  2.5
*OFFSET		=
*SPEED		=  0.833333
*SLIT_SPEC	=  0, 1/2 deg., 0.87, 10
*SLIT_SPEC	=  1, 1/2 deg., 0.67, 20
*SLIT_SPEC	=  2, 0.3mm, 0.3, 20
*SLIT_SPEC	=  3, 2mm, 8, 2
*KV		=  40
*MA		=  40
*LOW		=  1036.8
*HIGH		=  864
*CTEMPER	=  0, 0.000000
*CTEMPER	=  1, 0.000000
*CTEMPER	=  2, 0.000000
*PAREX		=  0, 0.000000
*PAREX		=  1, 0.000000
*PAREX		=  2, 0.000000
*PAREX		=  3, 0.000000
*PAREX		=  4, 0.000000
*PAREX		=  5, 0.000000
*PAREX		=  6, 0.000000
*PAREX		=  7, 0.000000
*PAREX		=  8, 0.000000
*PAREX		=  9, 0.000000
*PAREX		=  10, 0.000000
*PAREX		=  11, 0.000000
*PAREX		=  12, 0.000000
*PAREX		=  13, 0.000000
*PAREX		=  14, 0.000000
*PAREX		=  15, 0.000000
*FULL_SCALE	=  1000
*PF_AANGLE	=  50
*PF_BANGLE	=  0.000000
*INDEX		=  1, 1, 1
*COUNT		=  145
641, 556, 579, 603
596, 622, 548, 579
616, 589, 589, 634
584, 652, 663, 650
676, 643, 638, 703
695, 686, 740, 726
734, 753, 740, 791
776, 770, 770, 839
783, 712, 766, 745
707, 742, 679, 671
630, 611, 563, 574
579, 570, 508, 553
523, 520, 509, 521
535, 532, 492, 530
490, 507, 515, 511
491, 496, 464, 541
513, 539, 539, 570
604, 574, 644, 638
628, 631, 631, 625
688, 660, 612, 619
648, 625, 667, 678
683, 665, 690, 666
631, 639, 684, 707
683, 682, 741, 650
704, 690, 666, 687
663, 702, 634, 631
620, 611, 611, 602
549, 511, 543, 527
487, 463, 455, 445
451, 433, 428, 382
434, 440, 427, 430
453, 420, 432, 464
458, 445, 493, 487
504, 476, 516, 570
498, 534, 564, 570
579, 551, 565, 601
548
*END

*BEGIN
*GROUP		=  0
*START		=  0.000000
*STOP		=  360
*STEP		=  2.5
*OFFSET		=
*SPEED		=  0.833333
*SLIT_SPEC	=  0, 1/2 deg., 0.87, 10
*SLIT_SPEC	=  1, 1/2 deg., 0.67, 20
*SLIT_SPEC	=  2, 0.3mm, 0.3, 20
*SLIT_SPEC	=  3, 2mm, 8, 2
*KV		=  40
*MA		=  40
*LOW		=  950.4
*HIGH		=  864
*CTEMPER	=  0, 0.000000
*CTEMPER	=  1, 0.000000
*CTEMPER	=  2, 0.000000
*PAREX		=  0, 0.000000
*PAREX		=  1, 0.000000
*PAREX		=  2, 0.000000
*PAREX		=  3, 0.000000
*PAREX		=  4, 0.000000
*PAREX		=  5, 0.000000
*PAREX		=  6, 0.000000
*PAREX		=  7, 0.000000
*PAREX		=  8, 0.000000
*PAREX		=  9, 0.000000
*PAREX		=  10, 0.000000
*PAREX		=  11, 0.000000
*PAREX		=  12, 0.000000
*PAREX		=  13, 0.000000
*PAREX		=  14, 0.000000
*PAREX		=  15, 0.000000
*FULL_SCALE	=  1000
*PF_AANGLE	=  52.5
*PF_BANGLE	=  0.000000
*INDEX		=  1, 1, 1
*COUNT		=  145
666, 626, 618, 642
604, 658, 657, 660
683, 658, 690, 674
689, 725, 686, 760
718, 758, 734, 814
785, 776, 765, 807
769, 830, 787, 833
799, 839, 795, 789
811, 822, 838, 813
760, 713, 726, 730
661, 644, 559, 618
649, 575, 541, 577
553, 547, 559, 579
562, 486, 539, 492
536, 462, 520, 486
485, 513, 525, 476
513, 551, 613, 598
607, 546, 621, 640
635, 690, 652, 632
661, 709, 676, 669
689, 679, 710, 661
730, 700, 737, 729
711, 720, 715, 720
736, 807, 774, 815
783, 813, 801, 771
727, 749, 720, 725
689, 664, 616, 662
623, 570, 587, 546
580, 593, 558, 496
488, 513, 519, 469
476, 465, 492, 472
480, 449, 485, 487
481, 505, 511, 557
548, 549, 591, 577
559, 578, 580, 585
576, 572, 626, 598
584
*END

*BEGIN
*GROUP		=  0
*START		=  0.000000
*STOP		=  360
*STEP		=  2.5
*OFFSET		=
*SPEED		=  0.833333
*SLIT_SPEC	=  0, 1/2 deg., 0.87, 10
*SLIT_SPEC	=  1, 1/2 deg., 0.67, 20
*SLIT_SPEC	=  2, 0.3mm, 0.3, 20
*SLIT_SPEC	=  3, 2mm, 8, 2
*KV		=  40
*MA		=  40
*LOW		=  950.4
*HIGH		=  1036.8
*CTEMPER	=  0, 0.000000
*CTEMPER	=  1, 0.000000
*CTEMPER	=  2, 0.000000
*PAREX		=  0, 0.000000
*PAREX		=  1, 0.000000
*PAREX		=  2, 0.000000
*PAREX		=  3, 0.000000
*PAREX		=  4, 0.000000
*PAREX		=  5, 0.000000
*PAREX		=  6, 0.000000
*PAREX		=  7, 0.000000
*PAREX		=  8, 0.000000
*PAREX		=  9, 0.000000
*PAREX		=  10, 0.000000
*PAREX		=  11, 0.000000
*PAREX		=  12, 0.000000
*PAREX		=  13, 0.000000
*PAREX		=  14, 0.000000
*PAREX		=  15, 0.000000
*FULL_SCALE	=  1000
*PF_AANGLE	=  55
*PF_BANGLE	=  0.000000
*INDEX		=  1, 1, 1
*COUNT		=  145
685, 659, 709, 698
634, 676, 718, 679
682, 702, 723, 713
738, 768, 738, 801
805, 775, 864, 832
892, 805, 899, 862
832, 903, 897, 874
883, 928, 904, 865
904, 843, 824, 773
819, 814, 742, 795
696, 638, 662, 662
603, 608, 592, 545
601, 556, 562, 552
566, 547, 557, 543
549, 494, 499, 528
534, 541, 529, 540
560, 517, 570, 515
548, 606, 642, 580
613, 588, 645, 668
687, 691, 751, 753
713, 713, 748, 761
789, 758, 795, 779
823, 812, 836, 800
884, 908, 840, 831
882, 802, 825, 831
820, 867, 830, 734
832, 776, 747, 704
646, 688, 696, 627
633, 626, 630, 581
580, 543, 514, 558
537, 563, 512, 557
546, 488, 532, 591
533, 533, 548, 556
553, 596, 581, 604
626, 583, 656, 638
594, 642, 618, 669
640
*END

*BEGIN
*GROUP		=  0
*START		=  0.000000
*STOP		=  360
*STEP		=  2.5
*OFFSET		=
*SPEED		=  0.833333
*SLIT_SPEC	=  0, 1/2 deg., 0.87, 10
*SLIT_SPEC	=  1, 1/2 deg., 0.67, 20
*SLIT_SPEC	=  2, 0.3mm, 0.3, 20
*SLIT_SPEC	=  3, 2mm, 8, 2
*KV		=  40
*MA		=  40
*LOW		=  1123.2
*HIGH		=  1036.8
*CTEMPER	=  0, 0.000000
*CTEMPER	=  1, 0.000000
*CTEMPER	=  2, 0.000000
*PAREX		=  0, 0.000000
*PAREX		=  1, 0.000000
*PAREX		=  2, 0.000000
*PAREX		=  3, 0.000000
*PAREX		=  4, 0.000000
*PAREX		=  5, 0.000000
*PAREX		=  6, 0.000000
*PAREX		=  7, 0.000000
*PAREX		=  8, 0.000000
*PAREX		=  9, 0.000000
*PAREX		=  10, 0.000000
*PAREX		=  11, 0.000000
*PAREX		=  12, 0.000000
*PAREX		=  13, 0.000000
*PAREX		=  14, 0.000000
*PAREX		=  15, 0.000000
*FULL_SCALE	=  1000
*PF_AANGLE	=  57.5
*PF_BANGLE	=  0.000000
*INDEX		=  1, 1, 1
*COUNT		=  145
762, 775, 787, 770
740, 745, 805, 768
751, 826, 828, 842
829, 873, 841, 894
812, 892, 906, 867
909, 950, 949, 969
986, 945, 940, 965
928, 989, 907, 877
914, 855, 855, 846
802, 830, 736, 741
722, 741, 728, 713
657, 589, 626, 607
658, 626, 595, 578
584, 566, 543, 550
529, 567, 535, 616
567, 572, 598, 552
594, 557, 586, 616
615, 609, 641, 655
687, 677, 672, 694
695, 682, 704, 732
731, 786, 803, 770
808, 868, 829, 801
847, 855, 894, 909
930, 858, 944, 981
889, 985, 975, 897
887, 907, 936, 950
850, 812, 778, 782
784, 699, 742, 750
707, 682, 646, 679
663, 646, 647, 647
623, 612, 604, 648
634, 572, 557, 602
612, 654, 653, 628
600, 705, 685, 648
684, 690, 699, 732
717, 666, 717, 678
763
*END

*BEGIN
*GROUP		=  0
*START		=  0.000000
*STOP		=  360
*STEP		=  2.5
*OFFSET		=
*SPEED		=  0.833333
*SLIT_SPEC	=  0, 1/2 deg., 0.87, 10
*SLIT_SPEC	=  1, 1/2 deg., 0.67, 20
*SLIT_SPEC	=  2, 0.3mm, 0.3, 20
*SLIT_SPEC	=  3, 2mm, 8, 2
*KV		=  40
*MA		=  40
*LOW		=  1382.4
*HIGH		=  1209.6
*CTEMPER	=  0, 0.000000
*CTEMPER	=  1, 0.000000
*CTEMPER	=  2, 0.000000
*PAREX		=  0, 0.000000
*PAREX		=  1, 0.000000
*PAREX		=  2, 0.000000
*PAREX		=  3, 0.000000
*PAREX		=  4, 0.000000
*PAREX		=  5, 0.000000
*PAREX		=  6, 0.000000
*PAREX		=  7, 0.000000
*PAREX		=  8, 0.000000
*PAREX		=  9, 0.000000
*PAREX		=  10, 0.000000
*PAREX		=  11, 0.000000
*PAREX		=  12, 0.000000
*PAREX		=  13, 0.000000
*PAREX		=  14, 0.000000
*PAREX		=  15, 0.000000
*FULL_SCALE	=  1000
*PF_AANGLE	=  60
*PF_BANGLE	=  0.000000
*INDEX		=  1, 1, 1
*COUNT		=  145
798, 795, 815, 725
813, 820, 814, 863
917, 889, 892, 934
920, 950, 936, 953
951, 1010, 1024, 985
999, 1068, 972, 1031
1078, 1018, 1071, 990
1017, 1052, 1054, 987
936, 929, 901, 832
863, 866, 790, 805
750, 734, 730, 672
719, 702, 690, 639
628, 564, 626, 557
560, 633, 610, 584
548, 590, 553, 583
555, 608, 560, 586
610, 591, 592, 655
614, 617, 642, 626
659, 697, 730, 726
707, 716, 716, 772
746, 781, 859, 864
862, 922, 897, 918
856, 893, 954, 933
1009, 1037, 1001, 1026
1046, 1012, 1050, 1022
1050, 1008, 1072, 974
940, 952, 937, 887
855, 870, 841, 839
777, 785, 771, 768
731, 771, 757, 719
725, 726, 717, 673
682, 690, 690, 734
678, 672, 714, 682
740, 746, 702, 753
787, 763, 775, 753
760, 746, 797, 785
811
*END

*BEGIN
*GROUP		=  0
*START		=  0.000000
*STOP		=  360
*STEP		=  2.5
*OFFSET		=
*SPEED		=  0.833333
*SLIT_SPEC	=  0, 1/2 deg., 0.87, 10
*SLIT_SPEC	=  1, 1/2 deg., 0.67, 20
*SLIT_SPEC	=  2, 0.3mm, 0.3, 20
*SLIT_SPEC	=  3, 2mm, 8, 2
*KV		=  40
*MA		=  40
*LOW		=  1555.2
*HIGH		=  1036.8
*CTEMPER	=  0, 0.000000
*CTEMPER	=  1, 0.000000
*CTEMPER	=  2, 0.000000
*PAREX		=  0, 0.000000
*PAREX		=  1, 0.000000
*PAREX		=  2, 0.000000
*PAREX		=  3, 0.000000
*PAREX		=  4, 0.000000
*PAREX		=  5, 0.000000
*PAREX		=  6, 0.000000
*PAREX		=  7, 0.000000
*PAREX		=  8, 0.000000
*PAREX		=  9, 0.000000
*PAREX		=  10, 0.000000
*PAREX		=  11, 0.000000
*PAREX		=  12, 0.000000
*PAREX		=  13, 0.000000
*PAREX		=  14, 0.000000
*PAREX		=  15, 0.000000
*FULL_SCALE	=  1000
*PF_AANGLE	=  62.5
*PF_BANGLE	=  0.000000
*INDEX		=  1, 1, 1
*COUNT		=  145
917, 923, 898, 886
880, 942, 947, 908
921, 1040, 932, 1022
1026, 1034, 977, 1035
1044, 1116, 1084, 1090
1060, 1163, 1065, 1070
1129, 1116, 1122, 1071
1099, 1002, 1065, 1037
1012, 920, 950, 937
904, 871, 898, 837
832, 727, 745, 810
735, 703, 675, 672
674, 719, 637, 664
618, 635, 652, 607
607, 593, 587, 579
589, 615, 641, 619
622, 631, 629, 650
676, 694, 686, 677
695, 743, 683, 714
766, 782, 789, 796
854, 847, 831, 925
886, 936, 941, 935
988, 1029, 981, 1032
1072, 1069, 1054, 1129
1033, 1063, 1150, 1141
1058, 1107, 1021, 1041
1096, 1016, 971, 1019
1027, 974, 904, 903
872, 835, 899, 869
848, 833, 867, 805
829, 810, 840, 805
797, 840, 837, 782
775, 765, 836, 790
774, 813, 816, 780
888, 809, 847, 908
828, 909, 862, 882
819
*END

*BEGIN
*GROUP		=  0
*START		=  0.000000
*STOP		=  360
*STEP		=  2.5
*OFFSET		=
*SPEED		=  0.833333
*SLIT_SPEC	=  0, 1/2 deg., 0.87, 10
*SLIT_SPEC	=  1, 1/2 deg., 0.67, 20
*SLIT_SPEC	=  2, 0.3mm, 0.3, 20
*SLIT_SPEC	=  3, 2mm, 8, 2
*KV		=  40
*MA		=  40
*LOW		=  1555.2
*HIGH		=  1209.6
*CTEMPER	=  0, 0.000000
*CTEMPER	=  1, 0.000000
*CTEMPER	=  2, 0.000000
*PAREX		=  0, 0.000000
*PAREX		=  1, 0.000000
*PAREX		=  2, 0.000000
*PAREX		=  3, 0.000000
*PAREX		=  4, 0.000000
*PAREX		=  5, 0.000000
*PAREX		=  6, 0.000000
*PAREX		=  7, 0.000000
*PAREX		=  8, 0.000000
*PAREX		=  9, 0.000000
*PAREX		=  10, 0.000000
*PAREX		=  11, 0.000000
*PAREX		=  12, 0.000000
*PAREX		=  13, 0.000000
*PAREX		=  14, 0.000000
*PAREX		=  15, 0.000000
*FULL_SCALE	=  1000
*PF_AANGLE	=  65
*PF_BANGLE	=  0.000000
*INDEX		=  1, 1, 1
*COUNT		=  145
981, 989, 950, 1012
1019, 1100, 1024, 1067
1074, 1140, 1159, 1175
1112, 1136, 1148, 1138
1149, 1202, 1235, 1138
1232, 1140, 1215, 1187
1218, 1119, 1203, 1163
1096, 1045, 1034, 1095
1078, 1018, 1049, 964
1011, 936, 916, 848
835, 837, 858, 814
770, 811, 784, 744
676, 696, 673, 712
767, 680, 675, 635
641, 610, 698, 634
657, 686, 713, 693
699, 693, 633, 675
729, 705, 684, 755
684, 749, 776, 838
792, 851, 831, 836
879, 890, 926, 927
933, 948, 936, 978
1024, 1048, 1047, 1100
1020, 1106, 1111, 1127
1139, 1146, 1071, 1152
1175, 1122, 1079, 1168
1123, 1090, 1082, 1142
1058, 986, 1048, 1030
951, 946, 964, 1030
931, 964, 951, 900
900, 953, 897, 993
902, 873, 880, 931
906, 944, 926, 914
898, 945, 945, 909
920, 907, 961, 948
945, 1011, 958, 965
968
*END

*BEGIN
*GROUP		=  0
*START		=  0.000000
*STOP		=  360
*STEP		=  2.5
*OFFSET		=
*SPEED		=  0.833333
*SLIT_SPEC	=  0, 1/2 deg., 0.87, 10
*SLIT_SPEC	=  1, 1/2 deg., 0.67, 20
*SLIT_SPEC	=  2, 0.3mm, 0.3, 20
*SLIT_SPEC	=  3, 2mm, 8, 2
*KV		=  40
*MA		=  40
*LOW		=  1555.2
*HIGH		=  864
*CTEMPER	=  0, 0.000000
*CTEMPER	=  1, 0.000000
*CTEMPER	=  2, 0.000000
*PAREX		=  0, 0.000000
*PAREX		=  1, 0.000000
*PAREX		=  2, 0.000000
*PAREX		=  3, 0.000000
*PAREX		=  4, 0.000000
*PAREX		=  5, 0.000000
*PAREX		=  6, 0.000000
*PAREX		=  7, 0.000000
*PAREX		=  8, 0.000000
*PAREX		=  9, 0.000000
*PAREX		=  10, 0.000000
*PAREX		=  11, 0.000000
*PAREX		=  12, 0.000000
*PAREX		=  13, 0.000000
*PAREX		=  14, 0.000000
*PAREX		=  15, 0.000000
*FULL_SCALE	=  1000
*PF_AANGLE	=  67.5
*PF_BANGLE	=  0.000000
*INDEX		=  1, 1, 1
*COUNT		=  145
1069, 1110, 1121, 1144
1204, 1138, 1176, 1168
1236, 1197, 1200, 1270
1275, 1286, 1308, 1270
1343, 1319, 1320, 1288
1350, 1279, 1237, 1281
1273, 1233, 1226, 1133
1226, 1184, 1110, 993
1037, 1089, 1038, 1054
966, 1043, 942, 890
838, 903, 875, 830
810, 807, 756, 733
765, 766, 740, 740
739, 707, 701, 667
653, 735, 687, 651
678, 682, 717, 747
707, 714, 718, 733
762, 749, 762, 737
787, 829, 812, 836
837, 829, 853, 906
955, 920, 942, 957
962, 993, 1031, 1059
1068, 1100, 1132, 1072
1139, 1140, 1170, 1141
1154, 1179, 1228, 1157
1200, 1195, 1120, 1203
1129, 1198, 1214, 1161
1163, 1188, 1082, 1177
1062, 1072, 1083, 1128
1116, 1095, 1059, 1059
1047, 1060, 1089, 1031
1009, 1127, 1080, 1034
1051, 1026, 1073, 1034
1002, 1065, 1071, 1056
1077, 1112, 1077, 1059
1108, 1137, 1063, 1094
1067
*END

*BEGIN
*GROUP		=  0
*START		=  0.000000
*STOP		=  360
*STEP		=  2.5
*OFFSET		=
*SPEED		=  0.833333
*SLIT_SPEC	=  0, 1/2 deg., 0.87, 10
*SLIT_SPEC	=  1, 1/2 deg., 0.67, 20
*SLIT_SPEC	=  2, 0.3mm, 0.3, 20
*SLIT_SPEC	=  3, 2mm, 8, 2
*KV		=  40
*MA		=  40
*LOW		=  1728
*HIGH		=  1123.2
*CTEMPER	=  0, 0.000000
*CTEMPER	=  1, 0.000000
*CTEMPER	=  2, 0.000000
*PAREX		=  0, 0.000000
*PAREX		=  1, 0.000000
*PAREX		=  2, 0.000000
*PAREX		=  3, 0.000000
*PAREX		=  4, 0.000000
*PAREX		=  5, 0.000000
*PAREX		=  6, 0.000000
*PAREX		=  7, 0.000000
*PAREX		=  8, 0.000000
*PAREX		=  9, 0.000000
*PAREX		=  10, 0.000000
*PAREX		=  11, 0.000000
*PAREX		=  12, 0.000000
*PAREX		=  13, 0.000000
*PAREX		=  14, 0.000000
*PAREX		=  15, 0.000000
*FULL_SCALE	=  1000
*PF_AANGLE	=  70
*PF_BANGLE	=  0.000000
*INDEX		=  1, 1, 1
*COUNT		=  145
1274, 1229, 1210, 1237
1204, 1288, 1280, 1237
1345, 1320, 1272, 1337
1299, 1373, 1372, 1362
1373, 1303, 1381, 1374
1311, 1323, 1319, 1287
1266, 1232, 1218, 1134
1119, 1120, 1061, 1138
1028, 1048, 1041, 958
950, 903, 892, 879
919, 872, 889, 833
819, 799, 739, 792
767, 753, 708, 734
745, 738, 736, 753
703, 768, 732, 683
661, 736, 697, 717
707, 696, 720, 769
747, 768, 740, 793
795, 793, 816, 772
833, 829, 892, 906
922, 979, 898, 985
1003, 1047, 979, 1018
1053, 1005, 1020, 1068
1152, 1127, 1039, 1124
1115, 1130, 1184, 1161
1177, 1245, 1140, 1135
1140, 1086, 1260, 1132
1215, 1196, 1182, 1185
1128, 1147, 1137, 1149
1152, 1197, 1101, 1149
1144, 1133, 1105, 1140
1126, 1097, 1129, 1160
1161, 1150, 1195, 1124
1198, 1181, 1185, 1217
1195, 1168, 1170, 1173
1224, 1186, 1279, 1263
1292
*END

*BEGIN
*GROUP		=  0
*START		=  0.000000
*STOP		=  360
*STEP		=  2.5
*OFFSET		=
*SPEED		=  0.833333
*SLIT_SPEC	=  0, 1/2 deg., 0.87, 10
*SLIT_SPEC	=  1, 1/2 deg., 0.67, 20
*SLIT_SPEC	=  2, 0.3mm, 0.3, 20
*SLIT_SPEC	=  3, 2mm, 8, 2
*KV		=  40
*MA		=  40
*LOW		=  1641.6
*HIGH		=  1382.4
*CTEMPER	=  0, 0.000000
*CTEMPER	=  1, 0.000000
*CTEMPER	=  2, 0.000000
*PAREX		=  0, 0.000000
*PAREX		=  1, 0.000000
*PAREX		=  2, 0.000000
*PAREX		=  3, 0.000000
*PAREX		=  4, 0.000000
*PAREX		=  5, 0.000000
*PAREX		=  6, 0.000000
*PAREX		=  7, 0.000000
*PAREX		=  8, 0.000000
*PAREX		=  9, 0.000000
*PAREX		=  10, 0.000000
*PAREX		=  11, 0.000000
*PAREX		=  12, 0.000000
*PAREX		=  13, 0.000000
*PAREX		=  14, 0.000000
*PAREX		=  15, 0.000000
*FULL_SCALE	=  1000
*PF_AANGLE	=  72.5
*PF_BANGLE	=  0.000000
*INDEX		=  1, 1, 1
*COUNT		=  145
1328, 1347, 1343, 1380
1412, 1432, 1345, 1332
1382, 1395, 1378, 1362
1403, 1442, 1437, 1375
1443, 1454, 1396, 1409
1309, 1314, 1251, 1237
1232, 1191, 1186, 1112
1105, 1122, 1112, 1028
1015, 1032, 1015, 944
949, 926, 877, 857
879, 839, 891, 853
869, 796, 784, 821
748, 810, 788, 742
714, 696, 800, 727
676, 740, 739, 758
719, 724, 700, 696
713, 758, 796, 733
757, 778, 819, 764
844, 756, 860, 832
818, 805, 875, 845
907, 880, 932, 979
956, 905, 977, 1003
996, 1029, 1036, 1118
1057, 1061, 1106, 1130
1122, 1147, 1102, 1179
1160, 1148, 1185, 1160
1203, 1187, 1178, 1220
1177, 1212, 1173, 1149
1174, 1208, 1190, 1189
1187, 1163, 1134, 1188
1201, 1163, 1181, 1165
1264, 1205, 1176, 1202
1248, 1219, 1211, 1241
1286, 1286, 1298, 1272
1258, 1223, 1265, 1314
1327, 1248, 1328, 1271
1340
*END

*BEGIN
*GROUP		=  0
*START		=  0.000000
*STOP		=  360
*STEP		=  2.5
*OFFSET		=
*SPEED		=  0.833333
*SLIT_SPEC	=  0, 1/2 deg., 0.87, 10
*SLIT_SPEC	=  1, 1/2 deg., 0.67, 20
*SLIT_SPEC	=  2, 0.3mm, 0.3, 20
*SLIT_SPEC	=  3, 2mm, 8, 2
*KV		=  40
*MA		=  40
*LOW		=  1900.8
*HIGH		=  1728
*CTEMPER	=  0, 0.000000
*CTEMPER	=  1, 0.000000
*CTEMPER	=  2, 0.000000
*PAREX		=  0, 0.000000
*PAREX		=  1, 0.000000
*PAREX		=  2, 0.000000
*PAREX		=  3, 0.000000
*PAREX		=  4, 0.000000
*PAREX		=  5, 0.000000
*PAREX		=  6, 0.000000
*PAREX		=  7, 0.000000
*PAREX		=  8, 0.000000
*PAREX		=  9, 0.000000
*PAREX		=  10, 0.000000
*PAREX		=  11, 0.000000
*PAREX		=  12, 0.000000
*PAREX		=  13, 0.000000
*PAREX		=  14, 0.000000
*PAREX		=  15, 0.000000
*FULL_SCALE	=  1000
*PF_AANGLE	=  75
*PF_BANGLE	=  0.000000
*INDEX		=  1, 1, 1
*COUNT		=  145
1282, 1217, 1250, 1258
1307, 1308, 1284, 1294
1292, 1299, 1329, 1337
1272, 1313, 1274, 1287
1322, 1206, 1209, 1145
1199, 1201, 1126, 1134
1080, 1086, 1098, 1012
964, 1050, 1026, 933
1013, 902, 929, 854
842, 845, 854, 820
809, 839, 802, 748
807, 782, 758, 693
733, 752, 756, 728
698, 664, 676, 673
731, 689, 658, 707
706, 666, 690, 697
681, 668, 713, 696
747, 732, 734, 788
753, 827, 783, 805
804, 780, 802, 844
880, 849, 832, 860
864, 862, 886, 944
932, 927, 892, 941
939, 969, 945, 972
984, 995, 1044, 977
999, 1020, 1055, 1080
1076, 1042, 1066, 1037
1038, 1103, 1117, 1088
1103, 1049, 1091, 1111
1073, 1103, 1056, 1077
1118, 1129, 1096, 1171
1133, 1130, 1225, 1162
1173, 1163, 1189, 1235
1214, 1202, 1291, 1232
1219, 1274, 1247, 1284
1193, 1241, 1268, 1274
1326
*END

*BEGIN
*GROUP		=  0
*START		=  0.000000
*STOP		=  360
*STEP		=  2.5
*OFFSET		=
*SPEED		=  0.833333
*SLIT_SPEC	=  0, 1/2 deg., 0.87, 10
*SLIT_SPEC	=  1, 1/2 deg., 0.67, 20
*SLIT_SPEC	=  2, 0.3mm, 0.3, 20
*SLIT_SPEC	=  3, 2mm, 8, 2
*KV		=  40
*MA		=  40
*LOW		=  2160
*HIGH		=  1641.6
*CTEMPER	=  0, 0.000000
*CTEMPER	=  1, 0.000000
*CTEMPER	=  2, 0.000000
*PAREX		=  0, 0.000000
*PAREX		=  1, 0.000000
*PAREX		=  2, 0.000000
*PAREX		=  3, 0.000000
*PAREX		=  4, 0.000000
*PAREX		=  5, 0.000000
*PAREX		=  6, 0.000000
*PAREX		=  7, 0.000000
*PAREX		=  8, 0.000000
*PAREX		=  9, 0.000000
*PAREX		=  10, 0.000000
*PAREX		=  11, 0.000000
*PAREX		=  12, 0.000000
*PAREX		=  13, 0.000000
*PAREX		=  14, 0.000000
*PAREX		=  15, 0.000000
*FULL_SCALE	=  1000
*PF_AANGLE	=  77.5
*PF_BANGLE	=  0.000000
*INDEX		=  1, 1, 1
*COUNT		=  145
1243, 1162, 1161, 1178
1208, 1258, 1211, 1182
1220, 1132, 1189, 1158
1145, 1175, 1129, 1142
1034, 1129, 1085, 1009
1023, 989, 989, 1018
1039, 954, 953, 887
915, 929, 840, 862
853, 809, 830, 825
794, 790, 781, 773
746, 791, 720, 761
733, 794, 735, 691
705, 706, 731, 707
651, 688, 694, 711
710, 691, 657, 640
605, 656, 688, 740
711, 712, 690, 730
695, 662, 729, 712
710, 712, 728, 776
755, 748, 730, 812
727, 712, 713, 761
795, 825, 796, 814
846, 821, 851, 873
893, 864, 879, 895
873, 887, 855, 952
984, 953, 905, 939
1006, 972, 950, 981
954, 980, 1037, 1004
965, 1012, 1052, 999
1017, 990, 1069, 1037
1051, 1035, 1120, 1076
1056, 1114, 1063, 1127
1122, 1100, 1106, 1092
1166, 1139, 1122, 1215
1155, 1124, 1069, 1189
1121, 1135, 1117, 1126
1162
*END

*BEGIN
*GROUP		=  0
*START		=  0.000000
*STOP		=  360
*STEP		=  2.5
*OFFSET		=
*SPEED		=  0.833333
*SLIT_SPEC	=  0, 1/2 deg., 0.87, 10
*SLIT_SPEC	=  1, 1/2 deg., 0.67, 20
*SLIT_SPEC	=  2, 0.3mm, 0.3, 20
*SLIT_SPEC	=  3, 2mm, 8, 2
*KV		=  40
*MA		=  40
*LOW		=  1900.8
*HIGH		=  1900.8
*CTEMPER	=  0, 0.000000
*CTEMPER	=  1, 0.000000
*CTEMPER	=  2, 0.000000
*PAREX		=  0, 0.000000
*PAREX		=  1, 0.000000
*PAREX		=  2, 0.000000
*PAREX		=  3, 0.000000
*PAREX		=  4, 0.000000
*PAREX		=  5, 0.000000
*PAREX		=  6, 0.000000
*PAREX		=  7, 0.000000
*PAREX		=  8, 0.000000
*PAREX		=  9, 0.000000
*PAREX		=  10, 0.000000
*PAREX		=  11, 0.000000
*PAREX		=  12, 0.000000
*PAREX		=  13, 0.000000
*PAREX		=  14, 0.000000
*PAREX		=  15, 0.000000
*FULL_SCALE	=  1000
*PF_AANGLE	=  80
*PF_BANGLE	=  0.000000
*INDEX		=  1, 1, 1
*COUNT		=  145
910, 953, 997, 991
974, 942, 991, 946
1010, 894, 930, 904
892, 928, 894, 897
902, 882, 900, 863
907, 807, 770, 906
854, 800, 772, 784
756, 731, 790, 774
734, 729, 701, 755
659, 680, 697, 674
698, 682, 675, 667
683, 630, 656, 622
692, 652, 588, 612
583, 626, 654, 610
632, 643, 620, 586
617, 598, 654, 647
641, 653, 638, 676
633, 604, 694, 638
633, 605, 635, 658
641, 683, 713, 658
688, 648, 742, 707
704, 663, 713, 718
699, 689, 749, 780
782, 742, 770, 796
784, 811, 811, 820
775, 783, 791, 781
828, 800, 832, 812
838, 828, 823, 871
870, 870, 851, 881
896, 858, 900, 892
892, 907, 916, 878
943, 927, 959, 948
965, 965, 946, 986
944, 979, 946, 914
878, 959, 922, 932
990, 990, 995, 964
939
*END

*BEGIN
*GROUP		=  0
*START		=  0.000000
*STOP		=  360
*STEP		=  2.5
*OFFSET		=
*SPEED		=  0.833333
*SLIT_SPEC	=  0, 1/2 deg., 0.87, 10
*SLIT_SPEC	=  1, 1/2 deg., 0.67, 20
*SLIT_SPEC	=  2, 0.3mm, 0.3, 20
*SLIT_SPEC	=  3, 2mm, 8, 2
*KV		=  40
*MA		=  40
*LOW		=  1900.8
*HIGH		=  1987.2
*CTEMPER	=  0, 0.000000
*CTEMPER	=  1, 0.000000
*CTEMPER	=  2, 0.000000
*PAREX		=  0, 0.000000
*PAREX		=  1, 0.000000
*PAREX		=  2, 0.000000
*PAREX		=  3, 0.000000
*PAREX		=  4, 0.000000
*PAREX		=  5, 0.000000
*PAREX		=  6, 0.000000
*PAREX		=  7, 0.000000
*PAREX		=  8, 0.000000
*PAREX		=  9, 0.000000
*PAREX		=  10, 0.000000
*PAREX		=  11, 0.000000
*PAREX		=  12, 0.000000
*PAREX		=  13, 0.000000
*PAREX		=  14, 0.000000
*PAREX		=  15, 0.000000
*FULL_SCALE	=  1000
*PF_AANGLE	=  82.5
*PF_BANGLE	=  0.000000
*INDEX		=  1, 1, 1
*COUNT		=  145
760, 790, 762, 755
780, 782, 757, 737
710, 786, 748, 732
704, 735, 777, 751
749, 675, 717, 710
692, 663, 739, 645
735, 659, 645, 690
613, 659, 638, 644
644, 600, 600, 626
617, 631, 649, 590
598, 603, 599, 640
593, 579, 606, 515
618, 605, 593, 552
612, 569, 564, 543
547, 605, 586, 592
592, 573, 595, 565
544, 578, 579, 605
587, 581, 594, 612
606, 621, 573, 586
543, 615, 643, 618
654, 628, 643, 642
662, 651, 619, 691
697, 687, 633, 677
607, 673, 694, 613
688, 697, 698, 676
667, 678, 711, 690
707, 693, 732, 722
739, 743, 692, 762
710, 737, 706, 789
736, 795, 721, 736
769, 727, 754, 817
759, 814, 748, 799
807, 775, 785, 781
799, 756, 774, 762
784, 760, 763, 778
780, 782, 765, 739
767
*END

*BEGIN
*GROUP		=  0
*START		=  0.000000
*STOP		=  360
*STEP		=  2.5
*OFFSET		=
*SPEED		=  0.833333
*SLIT_SPEC	=  0, 1/2 deg., 0.87, 10
*SLIT_SPEC	=  1, 1/2 deg., 0.67, 20
*SLIT_SPEC	=  2, 0.3mm, 0.3, 20
*SLIT_SPEC	=  3, 2mm, 8, 2
*KV		=  40
*MA		=  40
*LOW		=  2246.4
*HIGH		=  1641.6
*CTEMPER	=  0, 0.000000
*CTEMPER	=  1, 0.000000
*CTEMPER	=  2, 0.000000
*PAREX		=  0, 0.000000
*PAREX		=  1, 0.000000
*PAREX		=  2, 0.000000
*PAREX		=  3, 0.000000
*PAREX		=  4, 0.000000
*PAREX		=  5, 0.000000
*PAREX		=  6, 0.000000
*PAREX		=  7, 0.000000
*PAREX		=  8, 0.000000
*PAREX		=  9, 0.000000
*PAREX		=  10, 0.000000
*PAREX		=  11, 0.000000
*PAREX		=  12, 0.000000
*PAREX		=  13, 0.000000
*PAREX		=  14, 0.000000
*PAREX		=  15, 0.000000
*FULL_SCALE	=  1000
*PF_AANGLE	=  85
*PF_BANGLE	=  0.000000
*INDEX		=  1, 1, 1
*COUNT		=  145
602, 674, 576, 614
637, 615, 624, 587
636, 648, 653, 605
654, 605, 590, 575
659, 618, 625, 611
614, 581, 603, 608
570, 583, 611, 621
586, 627, 602, 579
590, 589, 601, 561
607, 586, 560, 629
540, 552, 584, 576
559, 585, 598, 558
523, 617, 563, 569
599, 625, 567, 602
579, 572, 608, 618
583, 617, 564, 605
667, 585, 591, 598
561, 617, 587, 586
631, 666, 600, 602
679, 597, 592, 632
554, 609, 565, 613
613, 572, 587, 670
573, 611, 615, 589
647, 581, 662, 694
626, 631, 622, 647
644, 653, 619, 654
661, 610, 652, 609
655, 647, 642, 664
650, 631, 713, 648
680, 682, 658, 668
664, 674, 633, 647
695, 650, 645, 665
655, 616, 653, 660
675, 640, 659, 644
650, 658, 642, 655
600, 640, 642, 642
633
*END

*BEGIN
*GROUP		=  0
*START		=  0.000000
*STOP		=  360
*STEP		=  2.5
*OFFSET		=
*SPEED		=  0.833333
*SLIT_SPEC	=  0, 1/2 deg., 0.87, 10
*SLIT_SPEC	=  1, 1/2 deg., 0.67, 20
*SLIT_SPEC	=  2, 0.3mm, 0.3, 20
*SLIT_SPEC	=  3, 2mm, 8, 2
*KV		=  40
*MA		=  40
*LOW		=  2160
*HIGH		=  1555.2
*CTEMPER	=  0, 0.000000
*CTEMPER	=  1, 0.000000
*CTEMPER	=  2, 0.000000
*PAREX		=  0, 0.000000
*PAREX		=  1, 0.000000
*PAREX		=  2, 0.000000
*PAREX		=  3, 0.000000
*PAREX		=  4, 0.000000
*PAREX		=  5, 0.000000
*PAREX		=  6, 0.000000
*PAREX		=  7, 0.000000
*PAREX		=  8, 0.000000
*PAREX		=  9, 0.000000
*PAREX		=  10, 0.000000
*PAREX		=  11, 0.000000
*PAREX		=  12, 0.000000
*PAREX		=  13, 0.000000
*PAREX		=  14, 0.000000
*PAREX		=  15, 0.000000
*FULL_SCALE	=  1000
*PF_AANGLE	=  87.5
*PF_BANGLE	=  0.000000
*INDEX		=  1, 1, 1
*COUNT		=  145
579, 607, 549, 600
578, 592, 570, 584
565, 590, 540, 579
579, 550, 557, 595
555, 620, 611, 582
604, 533, 589, 580
598, 595, 589, 601
627, 595, 588, 606
579, 578, 587, 568
621, 577, 615, 613
610, 584, 607, 638
611, 615, 614, 596
618, 604, 612, 657
655, 618, 592, 636
629, 612, 666, 660
685, 609, 700, 636
672, 640, 621, 682
629, 678, 633, 671
638, 654, 679, 650
677, 666, 669, 629
650, 690, 650, 670
650, 735, 627, 634
648, 651, 700, 657
652, 658, 686, 664
614, 632, 656, 628
654, 616, 633, 641
671, 675, 640, 660
595, 631, 631, 579
664, 716, 641, 596
596, 608, 651, 621
612, 596, 650, 650
596, 617, 586, 623
613, 605, 562, 599
553, 647, 615, 594
626, 632, 590, 596
650, 612, 576, 559
560
*END

*BEGIN
*GROUP		=  0
*START		=  0.000000
*STOP		=  360
*STEP		=  2.5
*OFFSET		=
*SPEED		=  0.833333
*SLIT_SPEC	=  0, 1/2 deg., 0.87, 10
*SLIT_SPEC	=  1, 1/2 deg., 0.67, 20
*SLIT_SPEC	=  2, 0.3mm, 0.3, 20
*SLIT_SPEC	=  3, 2mm, 8, 2
*KV		=  40
*MA		=  40
*LOW		=  1900.8
*HIGH		=  1900.8
*CTEMPER	=  0, 0.000000
*CTEMPER	=  1, 0.000000
*CTEMPER	=  2, 0.000000
*PAREX		=  0, 0.000000
*PAREX		=  1, 0.000000
*PAREX		=  2, 0.000000
*PAREX		=  3, 0.000000
*PAREX		=  4, 0.000000
*PAREX		=  5, 0.000000
*PAREX		=  6, 0.000000
*PAREX		=  7, 0.000000
*PAREX		=  8, 0.000000
*PAREX		=  9, 0.000000
*PAREX		=  10, 0.000000
*PAREX		=  11, 0.000000
*PAREX		=  12, 0.000000
*PAREX		=  13, 0.000000
*PAREX		=  14, 0.000000
*PAREX		=  15, 0.000000
*FULL_SCALE	=  1000
*PF_AANGLE	=  90
*PF_BANGLE	=  0.000000
*INDEX		=  1, 1, 1
*COUNT		=  145
653, 636, 657, 606
598, 629, 659, 581
638, 658, 658, 595
600, 617, 663, 666
648, 638, 662, 616
666, 666, 679, 683
707, 702, 661, 641
626, 654, 671, 686
643, 732, 674, 693
717, 638, 698, 711
685, 666, 635, 679
693, 716, 751, 684
749, 777, 739, 769
738, 746, 769, 760
778, 810, 756, 783
798, 823, 778, 802
830, 766, 810, 807
845, 817, 771, 776
806, 800, 784, 835
783, 800, 781, 846
808, 757, 775, 812
766, 859, 793, 795
802, 800, 775, 739
746, 758, 747, 768
762, 773, 781, 752
737, 685, 738, 716
710, 676, 651, 699
692, 693, 721, 713
738, 647, 707, 660
642, 645, 651, 706
591, 588, 645, 589
612, 639, 640, 644
632, 634, 681, 644
609, 616, 641, 644
608, 604, 612, 612
581, 601, 571, 613
594
*END

*EOF